"success","timeout","failed_images","failed_audio","failed_video","trial_type","trial_index","plugin_version","time_elapsed","rt","stimulus","response","task","correct_response","correct"
"true","false","[]","[]","[]","preload","0","2.1.0","2","","","","","",""
"","","","","","html-keyboard-response","1","2.1.0","1423","1421","Welcome to the Experiment. Press any key to begin.","n","","",""
"","","","","","html-keyboard-response","2","2.1.0","2452","1029","
            <p> In this experiment, a circle will appear in the center of the screen. </p> <p> If the circle is <strong>blue</strong>, press the F button as fast as you can. </p> <p> If the circle is <strong>orange</strong>, press the J button as fast as you can. </p>
            <div style='width: 700px;'>
            <div style='float: left;'><img src='img/blue.png'></img>
            <p class='small'><strong>Press the F button</strong></p></div>
            <div style='float: right;'><img src='img/orange.png'></img>
            <p class='small'><strong>Press the J button</strong></p></div>
            </div>
            <p>Press any key to begin.</p>
            ","n","","",""
"","","","","","html-keyboard-response","3","2.1.0","6083","null","<div style=""font-size:60px;"">+</div>","null","fixation","",""
"","","","","","image-button-response","4","2.2.0","6910","825","img/orange.png","1","response","1","true"
"","","","","","html-keyboard-response","5","2.1.0","8415","null","<div style=""font-size:60px;"">+</div>","null","fixation","",""
"","","","","","image-button-response","6","2.2.0","9144","728","img/blue.png","0","response","0","true"
"","","","","","html-keyboard-response","7","2.1.0","10677","null","<div style=""font-size:60px;"">+</div>","null","fixation","",""
"","","","","","image-button-response","8","2.2.0","11943","1265","img/blue.png","0","response","0","true"
"","","","","","html-keyboard-response","9","2.1.0","13591","null","<div style=""font-size:60px;"">+</div>","null","fixation","",""
"","","","","","image-button-response","10","2.2.0","14361","768","img/orange.png","1","response","1","true"
"","","","","","html-keyboard-response","11","2.1.0","16125","null","<div style=""font-size:60px;"">+</div>","null","fixation","",""
"","","","","","image-button-response","12","2.2.0","16610","485","img/blue.png","0","response","0","true"
"","","","","","html-keyboard-response","13","2.1.0","17367","null","<div style=""font-size:60px;"">+</div>","null","fixation","",""
"","","","","","image-button-response","14","2.2.0","18027","658","img/orange.png","1","response","1","true"
"","","","","","html-keyboard-response","15","2.1.0","19532","null","<div style=""font-size:60px;"">+</div>","null","fixation","",""
"","","","","","image-button-response","16","2.2.0","20093","560","img/blue.png","0","response","0","true"
"","","","","","html-keyboard-response","17","2.1.0","21597","null","<div style=""font-size:60px;"">+</div>","null","fixation","",""
"","","","","","image-button-response","18","2.2.0","22293","693","img/orange.png","1","response","1","true"
"","","","","","html-keyboard-response","19","2.1.0","24177","null","<div style=""font-size:60px;"">+</div>","null","fixation","",""
"","","","","","image-button-response","20","2.2.0","24760","581","img/blue.png","0","response","0","true"
"","","","","","html-keyboard-response","21","2.1.0","26016","null","<div style=""font-size:60px;"">+</div>","null","fixation","",""
"","","","","","image-button-response","22","2.2.0","26793","775","img/orange.png","1","response","1","true"
"","","","","","html-keyboard-response","23","2.1.0","33104","6308","<p>You responded correctly on 100% of the trials. </p><p>Your average response time was 734ms.</p><p>Press any key to complete the experiment. Thank you!</p>"," ","","",""
